#Name CIE_D65
#CCT 6504
#CRI 100
#Spectrum_Power_Distribution
300.0    0.030000
305.0    1.660000
310.0    3.290000
315.0    11.770000
320.0    20.240000
325.0    28.640000
330.0    37.050000
335.0    38.500000
340.0    39.950000
345.0    42.430000
350.0    44.910000
355.0    45.780000
360.0    46.640000
365.0    49.360000
370.0    52.090000
375.0    51.030000
380.0    49.980000
385.0    52.310000
390.0    54.650000
395.0    68.700000
400.0    82.750000
405.0    87.120000
410.0    91.490000
415.0    92.460000
420.0    93.430000
425.0    90.060000
430.0    86.680000
435.0    95.770000
440.0    104.860000
445.0    110.940000
450.0    117.010000
455.0    117.410000
460.0    117.810000
465.0    116.340000
470.0    114.860000
475.0    115.390000
480.0    115.920000
485.0    112.370000
490.0    108.810000
495.0    109.080000
500.0    109.350000
505.0    108.580000
510.0    107.800000
515.0    106.300000
520.0    104.790000
525.0    106.240000
530.0    107.690000
535.0    106.050000
540.0    104.410000
545.0    104.230000
550.0    104.050000
555.0    102.020000
560.0    100.000000
565.0    98.170000
570.0    96.330000
575.0    96.060000
580.0    95.790000
585.0    92.240000
590.0    88.690000
595.0    89.350000
600.0    90.010000
605.0    89.800000
610.0    89.600000
615.0    88.650000
620.0    87.700000
625.0    85.490000
630.0    83.290000
635.0    83.490000
640.0    83.700000
645.0    81.860000
650.0    80.030000
655.0    80.120000
660.0    80.210000
665.0    81.250000
670.0    82.280000
675.0    80.280000
680.0    78.280000
685.0    74.000000
690.0    69.720000
695.0    70.670000
700.0    71.610000
705.0    72.980000
710.0    74.350000
715.0    67.980000
720.0    61.600000
725.0    65.740000
730.0    69.890000
735.0    72.490000
740.0    75.090000
745.0    69.340000
750.0    63.590000
755.0    55.010000
760.0    46.420000
765.0    56.610000
770.0    66.810000
775.0    65.090000
780.0    63.380000
785.0    63.840000
790.0    64.300000
795.0    61.880000
800.0    59.450000
805.0    55.710000
810.0    51.960000
815.0    54.700000
820.0    57.440000
825.0    58.880000
830.0    60.310000
