#Name CIE_D50
#CCT 5003
#CRI 100
#Spectrum_Power_Distribution
300.0    0.020000
305.0    1.030000
310.0    2.050000
315.0    4.910000
320.0    7.780000
325.0    11.260000
330.0    14.750000
335.0    16.350000
340.0    17.950000
345.0    19.480000
350.0    21.010000
355.0    22.480000
360.0    23.940000
365.0    25.450000
370.0    26.960000
375.0    25.720000
380.0    24.490000
385.0    27.180000
390.0    29.870000
395.0    39.590000
400.0    49.310000
405.0    52.910000
410.0    56.510000
415.0    58.270000
420.0    60.030000
425.0    58.930000
430.0    57.820000
435.0    66.310000
440.0    74.820000
445.0    81.040000
450.0    87.250000
455.0    88.930000
460.0    90.610000
465.0    90.990000
470.0    91.370000
475.0    93.240000
480.0    95.110000
485.0    93.540000
490.0    91.960000
495.0    93.840000
500.0    95.720000
505.0    96.170000
510.0    96.610000
515.0    96.870000
520.0    97.130000
525.0    99.610000
530.0    102.100000
535.0    101.430000
540.0    100.750000
545.0    101.540000
550.0    102.320000
555.0    101.160000
560.0    100.000000
565.0    98.870000
570.0    97.740000
575.0    98.330000
580.0    98.920000
585.0    96.210000
590.0    93.500000
595.0    95.590000
600.0    97.690000
605.0    98.480000
610.0    99.270000
615.0    99.160000
620.0    99.040000
625.0    97.380000
630.0    95.720000
635.0    97.290000
640.0    98.860000
645.0    97.260000
650.0    95.670000
655.0    96.930000
660.0    98.190000
665.0    100.600000
670.0    103.000000
675.0    101.070000
680.0    99.130000
685.0    93.260000
690.0    87.380000
695.0    89.490000
700.0    91.600000
705.0    92.250000
710.0    92.890000
715.0    84.870000
720.0    76.850000
725.0    81.680000
730.0    86.510000
735.0    89.550000
740.0    92.580000
745.0    85.400000
750.0    78.230000
755.0    67.960000
760.0    57.690000
765.0    70.310000
770.0    82.920000
775.0    80.600000
780.0    78.270000
785.0    78.910000
790.0    79.550000
795.0    76.480000
800.0    73.400000
805.0    68.660000
810.0    63.920000
815.0    67.350000
820.0    70.780000
825.0    72.610000
830.0    74.440000
