#Name CIE_D75
#CCT 7504
#CRI 100
#Spectrum_Power_Distribution
300.0    0.040000
305.0    2.590000
310.0    5.130000
315.0    17.470000
320.0    29.810000
325.0    42.370000
330.0    54.930000
335.0    56.090000
340.0    57.260000
345.0    60.000000
350.0    62.740000
355.0    62.860000
360.0    62.980000
365.0    66.650000
370.0    70.310000
375.0    68.510000
380.0    66.700000
385.0    68.330000
390.0    69.960000
395.0    85.950000
400.0    101.930000
405.0    106.910000
410.0    111.890000
415.0    112.350000
420.0    112.800000
425.0    107.940000
430.0    103.090000
435.0    112.140000
440.0    121.200000
445.0    127.100000
450.0    133.010000
455.0    132.680000
460.0    132.360000
465.0    129.840000
470.0    127.320000
475.0    127.060000
480.0    126.800000
485.0    122.290000
490.0    117.780000
495.0    117.190000
500.0    116.590000
505.0    115.150000
510.0    113.700000
515.0    111.180000
520.0    108.660000
525.0    109.550000
530.0    110.440000
535.0    108.370000
540.0    106.290000
545.0    105.600000
550.0    104.900000
555.0    102.450000
560.0    100.000000
565.0    97.810000
570.0    95.620000
575.0    94.910000
580.0    94.210000
585.0    90.600000
590.0    87.000000
595.0    87.110000
600.0    87.230000
605.0    86.680000
610.0    86.140000
615.0    84.860000
620.0    83.580000
625.0    81.160000
630.0    78.750000
635.0    78.590000
640.0    78.430000
645.0    76.610000
650.0    74.800000
655.0    74.560000
660.0    74.320000
665.0    74.870000
670.0    75.420000
675.0    73.500000
680.0    71.580000
685.0    67.710000
690.0    63.850000
695.0    64.460000
700.0    65.080000
705.0    66.570000
710.0    68.070000
715.0    62.260000
720.0    56.440000
725.0    60.340000
730.0    64.240000
735.0    66.700000
740.0    69.150000
745.0    63.890000
750.0    58.630000
755.0    50.620000
760.0    42.620000
765.0    51.980000
770.0    61.350000
775.0    59.840000
780.0    58.320000
785.0    58.730000
790.0    59.140000
795.0    56.940000
800.0    54.730000
805.0    51.320000
810.0    47.920000
815.0    50.420000
820.0    52.920000
825.0    54.230000
830.0    55.540000
